Folder: Ingegneria-dei-sistemi-medicali/secondo-anno/scienze-materiali/Homework 

Note: README.md
# Ingegneria-dei-sistemi-medicali-verona

File: HE1.txt
2 theta/deg	Intensity
   5.016711       449.0000
   5.250669       389.0000
   5.484627       438.0000
   5.718585       415.0000
   5.952542       393.0000
   6.186500       399.0000
   6.420458       398.0000
   6.654416       395.0000
   6.888373       410.0000
   7.122331       395.0000
   7.356289       397.0000
   7.590247       407.0000
   7.824204       407.0000
   8.058163       430.0000
   8.292120       380.0000
   8.526077       389.0000
   8.760036       396.0000
   8.993993       399.0000
   9.227951       437.0000
   9.461908       420.0000
   9.695867       406.0000
   9.929825       421.0000
   10.16378       418.0000
   10.39774       426.0000
   10.63170       444.0000
   10.86566       452.0000
   11.09961       422.0000
   11.33357       477.0000
   11.56753       466.0000
   11.80149       449.0000
   12.03544       473.0000
   12.26940       473.0000
   12.50336       431.0000
   12.73732       445.0000
   12.97128       443.0000
   13.20523       482.0000
   13.43919       468.0000
   13.67315       439.0000
   13.90711       418.0000
   14.14106       425.0000
   14.37502       444.0000
   14.60898       429.0000
   14.84294       456.0000
   15.07689       457.0000
   15.31085       406.0000
   15.54481       460.0000
   15.77877       419.0000
   16.01273       419.0000
   16.24669       472.0000
   16.48064       457.0000
   16.71460       421.0000
   16.94856       429.0000
   17.18251       432.0000
   17.41647       477.0000
   17.65043       416.0000
   17.88439       432.0000
   18.11835       463.0000
   18.35230       476.0000
   18.58626       463.0000
   18.82022       436.0000
   19.05418       423.0000
   19.28814       451.0000
   19.52209       455.0000
   19.75605       443.0000
   19.99001       446.0000
   20.22396       467.0000
   20.45792       463.0000
   20.69188       433.0000
   20.92584       458.0000
   21.15980       456.0000
   21.39375       421.0000
   21.62771       416.0000
   21.86167       415.0000
   22.09563       437.0000
   22.32959       422.0000
   22.56354       437.0000
   22.79750       433.0000
   23.03146       416.0000
   23.26542       428.0000
   23.49937       479.0000
   23.73333       437.0000
   23.96729       446.0000
   24.20125       406.0000
   24.43520       443.0000
   24.66916       425.0000
   24.90312       424.0000
   25.13708       444.0000
   25.37104       432.0000
   25.60500       399.0000
   25.83895       456.0000
   26.07291       434.0000
   26.30687       464.0000
   26.54082       423.0000
   26.77478       449.0000
   27.00874       424.0000
   27.24270       434.0000
   27.47666       465.0000
   27.71061       439.0000
   27.94457       443.0000
   28.17853       472.0000
   28.41249       450.0000
   28.64645       437.0000
   28.88040       465.0000
   29.11436       451.0000
   29.34832       418.0000
   29.58228       428.0000
   29.81623       458.0000
   30.05019       463.0000
   30.28415       421.0000
   30.51811       502.0000
   30.75206       460.0000
   30.98602       459.0000
   31.21998       499.0000
   31.45394       469.0000
   31.68790       477.0000
   31.92185       477.0000
   32.15581       470.0000
   32.38977       518.0000
   32.62373       482.0000
   32.85769       496.0000
   33.09164       499.0000
   33.32560       529.0000
   33.55956       532.0000
   33.79351       585.0000
   34.02747       563.0000
   34.26143       591.0000
   34.49539       616.0000
   34.72935       643.0000
   34.96331       647.0000
   35.19726       665.0000
   35.43122       660.0000
   35.66518       794.0000
   35.89914       950.0000
   36.13309       1083.000
   36.36705       1670.000
   36.60101       2957.000
   36.83496       5361.000
   37.06892       6056.000
   37.30288       4359.000
   37.53684       2281.000
   37.77080       1326.000
   38.00476       994.0000
   38.23871       805.0000
   38.47267       752.0000
   38.70663       724.0000
   38.94059       711.0000
   39.17455       622.0000
   39.40850       650.0000
   39.64246       592.0000
   39.87642       630.0000
   40.11037       616.0000
   40.34433       603.0000
   40.57829       587.0000
   40.81225       578.0000
   41.04621       562.0000
   41.28017       584.0000
   41.51412       552.0000
   41.74808       568.0000
   41.98204       557.0000
   42.21600       555.0000
   42.44995       501.0000
   42.68391       504.0000
   42.91787       477.0000
   43.15183       508.0000
   43.38578       493.0000
   43.61974       465.0000
   43.85370       479.0000
   44.08766       482.0000
   44.32162       495.0000
   44.55557       500.0000
   44.78953       507.0000
   45.02349       466.0000
   45.25745       523.0000
   45.49141       508.0000
   45.72536       474.0000
   45.95932       503.0000
   46.19328       479.0000
   46.42723       496.0000
   46.66119       450.0000
   46.89515       461.0000
   47.12911       509.0000
   47.36307       488.0000
   47.59702       519.0000
   47.83098       516.0000
   48.06494       512.0000
   48.29890       505.0000
   48.53286       442.0000
   48.76682       509.0000
   49.00077       467.0000
   49.23473       500.0000
   49.46869       503.0000
   49.70264       460.0000
   49.93660       463.0000
   50.17056       600.0000
   50.40452       548.0000
   50.63847       550.0000
   50.87243       656.0000
   51.10639       637.0000
   51.34035       753.0000
   51.57431       908.0000
   51.80827       1104.000
   52.04222       1430.000
   52.27618       2289.000
   52.51014       3810.000
   52.74409       6396.000
   52.97805       9352.000
   53.21201       10925.00
   53.44597       9244.000
   53.67993       5751.000
   53.91388       3038.000
   54.14784       1818.000
   54.38180       1226.000
   54.61576       930.0000
   54.84972       890.0000
   55.08367       711.0000
   55.31763       718.0000
   55.55159       690.0000
   55.78555       656.0000
   56.01950       608.0000
   56.25346       604.0000
   56.48742       553.0000
   56.72138       598.0000
   56.95533       567.0000
   57.18929       609.0000
   57.42325       598.0000
   57.65721       554.0000
   57.89117       594.0000
   58.12512       509.0000
   58.35908       582.0000
   58.59304       547.0000
   58.82700       503.0000
   59.06096       550.0000
   59.29491       524.0000
   59.52887       521.0000
   59.76283       499.0000
   59.99678       563.0000
   60.23074       489.0000
   60.46470       504.0000
   60.69866       511.0000
   60.93262       563.0000
   61.16658       555.0000
   61.40053       497.0000
   61.63449       540.0000
   61.86845       507.0000
   62.10241       457.0000
   62.33636       518.0000
   62.57032       478.0000
   62.80428       497.0000
   63.03824       488.0000
   63.27219       512.0000
   63.50615       479.0000
   63.74011       511.0000
   63.97407       553.0000
   64.20802       512.0000
   64.44198       554.0000
   64.67594       547.0000
   64.90990       547.0000
   65.14385       605.0000
   65.37782       668.0000
   65.61177       830.0000
   65.84573       1018.000
   66.07969       1398.000
   66.31364       1655.000
   66.54760       1918.000
   66.78156       1843.000
   67.01552       1528.000
   67.24947       1156.000
   67.48343       858.0000
   67.71739       746.0000
   67.95135       607.0000
   68.18530       556.0000
   68.41927       513.0000
   68.65322       524.0000
   68.88718       552.0000
   69.12113       510.0000
   69.35509       532.0000
   69.58905       535.0000
   69.82301       478.0000
   69.95670       516.0000